File: nmf-with-peak-shifting/xrd-segmentations.csv
two_theta,component-0,component-1,component-2,component-3,component-4,component-5,component-6,component-7
0.8,-0.0,0.7698304,0.09338219,-0.0,0.6904225,0.0572512,-0.0,-0.0
0.83616,-0.0,3.30095e-05,0.292875,-0.0,0.7156105,4.752419e-06,-0.0,0.007150319
0.87232,-0.0,-0.0,0.3487194,-0.0,0.75711,0.00163611,-0.0,0.007191532
0.90848,-0.0,-0.0,0.380622,-0.0,0.779492,0.000648156,-0.0,0.008879716
0.94464,-0.0,-0.0,0.383654,-0.0,0.7944143,0.0001227754,-0.0,0.009286735
0.9808,-0.0,-0.0,0.402637,-0.0,0.8109804,0.0017403,-0.0,0.009511482
1.01696,-0.0,-0.0,0.374952,-0.0,0.8178255,0.000242494,-0.0,0.009385851
1.05312,-0.0,-0.0,0.381808,-0.0,0.833612,0.0028119,-0.0,0.009090837
1.08928,-0.0,-0.0,0.369519,-0.0,0.844087,0.00116251,-0.0,0.009909898
1.12544,-0.0,-0.0,0.376451,-0.0,0.8591121,0.00310612,-0.0,0.009954221
1.1616,-0.0,-0.0,0.371296,-0.0,0.870883,0.002222452,-0.0,0.01034983
1.19776,-0.0,-0.0,0.368106,-0.0,0.8854839,0.004258069,-0.0,0.00817198
1.23392,-0.0,-0.0,0.338802,-0.0,0.901017,0.00548646,-0.0,0.004721912
1.27008,-0.0,-0.0,0.374244,-0.0,0.9273345,0.00609951,-0.0,0.004057562
1.30624,-0.0,0.00252184,0.490799,-0.0,0.94653,0.00778524,-0.0,0.005165711
1.3424,-0.0,0.07634944,0.647753,-0.0,0.970349,0.0112739,-0.0,0.009591268
1.37856,-0.0,0.09284502,0.7211676,-0.0,0.9915816,0.0149941,-0.0,0.0220962
1.41472,-0.0,0.0198381,0.6410604,-0.0,0.9942633,0.0163313,-0.0,0.04230216
1.45088,-0.0,-0.0,0.529105,-0.0,0.9953451,0.00990043,-0.0,0.06437275
1.48704,-0.0,-0.0,0.477746,-0.0,1.00689,0.04165194,-0.0,0.06506968
1.5232,-0.0,-0.0,0.445235,-0.0,1.02106,0.057326,-0.0,0.039838
1.55936,-0.0,-0.0,0.409261,-0.0,1.04187,0.0427286,-0.0,0.0293617
1.59552,-0.0,-0.0,0.433524,-0.0,1.07025,0.000144121,-0.0,0.046697
1.63168,-0.0,-0.0,0.44597,-0.0,1.08971,-0.0,-0.0,0.07366614
1.66784,-0.0,-0.0,0.420467,-0.0,1.12384,-0.0,-0.0,0.11447
1.704,-0.0,-0.0,0.371109,-0.0,1.16887,-0.0,-0.0,0.122028
1.74016,-0.0,-0.0,0.362055,-0.0,1.21619,-0.0,-0.0,0.08181067
1.77632,-0.0,-0.0,0.38931,-0.0,1.24739,-0.0,-0.0,0.0338002
1.81248,-0.0,-0.0,0.449211,-0.0,1.28008,-0.0,-0.0,0.014843
1.84864,-0.0,-0.0,0.471319,-0.0,1.31871,0.002388592,-0.0,0.00429745
1.8848,-0.0,-0.0,0.475331,-0.0,1.36941,0.0122138,-0.0,-0.0
1.92096,-0.0,-0.0,0.487845,-0.0,1.43113,0.0124196,-0.0,-0.0
1.95712,-0.0,-0.0,0.4583297,-0.0,1.49603,0.0207635,-0.0,-0.0
1.99328,-0.0,-0.0,0.423598,-0.0,1.58006,0.00153927,-0.0,-0.0
2.02944,-0.0,-0.0,0.3909221,-0.0,1.67149,-0.0,-0.0,-0.0
2.0656,-0.0,-0.0,0.3691916,-0.0,1.7651,-0.0,-0.0,-0.0
2.10176,-0.0,-0.0,0.338371,-0.0,1.85828,-0.0,-0.0,-0.0
2.13792,-0.0,-0.0,0.3491922,-0.0,1.96933,-0.0,-0.0,-0.0
2.17408,-0.0,-0.0,0.424925,-0.0,2.077978,-0.0,-0.0,-0.0
2.21024,-0.0,0.0580225,0.6839512,-0.0,2.192106,-0.0,-0.0,-0.0
2.2464,-0.0,0.2159308,0.819908,-0.0,2.31865,-0.0,-0.0,-0.0
2.28256,-0.0,0.1985996,0.5532574,-0.0,2.44441,-0.0,-0.0,-0.0
2.31872,-0.0,0.09505723,0.09253835,-0.0,2.56044,0.0137222,-0.0,-0.0
2.35488,-0.0,0.06390194,-0.0,-0.0,2.65803,0.0666955,-0.0,0.0037411
2.39104,-0.0,0.1212209,-0.0,-0.0,2.72777,0.136891,-0.0,0.04625614
2.4272,-0.0,0.20599,-0.0,-0.0,2.77324,0.251208,-0.0,0.091309
2.46336,-0.0,0.250139,-0.0,-0.0,2.786058,0.316114,-0.0,0.158505
2.49952,-0.0,0.243199,-0.0,-0.0,2.752713,0.2941259,-0.0,0.254732
2.53568,-0.0,0.285208,-0.0,-0.0,2.73136,0.2635909,-0.0,0.3676535
2.57184,-0.0,0.3725247,-0.0,-0.0,2.7931,0.390217,-0.0,0.404413
2.608,-0.0,0.5660192,-0.0,-0.0,3.05529,0.4810688,-0.0,0.321004
2.64416,-0.0,0.9773479,-0.0,-0.0,3.72256,0.492736,-0.0,0.230767
2.68032,-0.0,1.9318,0.864723,0.09760205,4.810045,0.6006024,-0.0,0.212135
2.71648,-0.0,2.687875,1.23688,0.254584,5.372525,0.7125109,-0.0,0.203834
2.75264,-0.0,2.79023,0.659704,0.06601203,4.864343,0.4927312,-0.0,0.2266202
2.7888,-0.0,1.64345,8.60903e-06,-0.0,3.49565,0.263031,-0.0,0.252954
2.82496,-0.0,0.551062,-0.0,-0.0,2.29874,0.1855285,-0.0,0.239882
2.86112,-0.0,0.0150846,-0.0,-0.0,1.56585,0.103797,-0.0,0.223533
2.89728,-0.0,1.16723e-05,-0.0,-0.0,1.2139,0.0695628,-0.0,0.226802
2.93344,-0.0,2.60175e-05,-0.0,-0.0,1.01031,0.0597423,-0.0,0.265972
2.9696,-0.0,0.008171728,2.89698e-05,-0.0,0.8889916,0.0923343,-0.0,0.335066
3.00576,-0.0,-0.0,5.649216e-05,-0.0,0.8027354,0.157457,-0.0,0.399497
3.04192,-0.0,-0.0,0.000158164,-0.0,0.7384414,0.283167,-0.0,0.4366964
3.07808,-0.0,-0.0,2.58302e-05,-0.0,0.6883043,0.286817,-0.0,0.449902
3.11424,-0.0,-0.0,-0.0,-0.0,0.649791,0.194683,-0.0,0.429638
3.1504,-0.0,-0.0,1.52433e-05,-0.0,0.6166625,0.130827,-0.0,0.391153
3.18656,-0.0,-0.0,3.04396e-05,-0.0,0.5884027,0.129166,-0.0,0.371174
3.22272,-0.0,-0.0,2.044846e-05,-0.0,0.5666753,0.210819,-0.0,0.347525
3.25888,-0.0,-0.0,0.00117192,-0.0,0.550646,0.243099,-0.0,0.3060716
3.29504,-0.0,0.00296889,2.08795e-05,-0.0,0.53482,0.151187,-0.0,0.2945185
3.3312,-0.0,0.0190265,-0.0,-0.0,0.523477,0.0939489,-0.0,0.3209436
3.36736,-0.0,0.0192279,-0.0,-0.0,0.514299,0.125827,-0.0,0.3453175
3.40352,-0.0,-0.0,-0.0,-0.0,0.5029868,0.392298,-0.0,0.3636997
3.43968,-0.0,-0.0,-0.0,-0.0,0.498309,0.6033752,-0.0,0.3783854
3.47584,-0.0,-0.0,-0.0,-0.0,0.4995952,0.5342145,-0.0,0.388282
3.512,-0.0,-0.0,-0.0,-0.0,0.500285,0.3015873,-0.0,0.376538
3.54816,-0.0,-0.0,-0.0,-0.0,0.502705,0.262789,-0.0,0.370419
3.58432,-0.0,-0.0,-0.0,-0.0,0.507133,0.304502,-0.0,0.376556
3.62048,-0.0,-0.0,-0.0,-0.0,0.5068676,0.277005,-0.0,0.3873328
3.65664,-0.0,0.02422997,-0.0,-0.0,0.5039384,0.2505487,-0.0,0.399897
3.6928,-0.0,0.0282073,-0.0,-0.0,0.5040423,0.2933148,-0.0,0.413052
3.72896,-0.0,0.0177333,-0.0,-0.0,0.5080854,0.285589,-0.0,0.415194
3.76512,-0.0,6.59718e-05,-0.0,-0.0,0.509605,0.179453,-0.0,0.405723
3.80128,-0.0,-0.0,-0.0,-0.0,0.50669,0.116071,-0.0,0.405146
3.83744,-0.0,-0.0,3.33619e-06,-0.0,0.5017182,0.167598,-0.0,0.426573
3.8736,-0.0,-0.0,3.45278e-05,-0.0,0.50015,0.215046,-0.0,0.466127
3.90976,-0.0,-0.0,0.0113687,-0.0,0.49983,0.158144,-0.0,0.5509814
3.94592,-0.0,-0.0,0.03736472,-0.0,0.495901,0.133703,-0.0,0.6852574
3.98208,-0.0,-0.0,0.04396842,-0.0,0.4957519,0.2693214,-0.0,0.7754
4.01824,-0.0,-0.0,0.02876763,-0.0,0.5051792,0.506433,-0.0,0.755116
4.0544,-0.0,-0.0,0.02484427,-0.0,0.518819,0.450843,-0.0,0.731416
4.09056,-0.0,-0.0,0.0153579,-0.0,0.532957,0.3289835,-0.0,0.7854178
4.12672,-0.0,-0.0,6.396591e-05,-0.0,0.5482548,0.413246,-0.0,0.8176933
4.16288,-0.0,-0.0,-0.0,-0.0,0.5619161,0.6396153,-0.0,0.7850998
4.19904,-0.0,-0.0,-0.0,-0.0,0.578394,0.75371,-0.0,0.788204
4.2352,-0.0,0.010469,-0.0,-0.0,0.6056509,0.65807,-0.0,0.898975
4.27136,-0.0,0.03833608,0.000141763,-0.0,0.645071,0.415509,-0.0,1.107192
4.30752,-0.0,0.0483648,1.594843e-05,-0.0,0.6766774,0.2741141,-0.0,1.320891
4.34368,-0.0,0.0220944,-0.0,-0.0,0.7044866,0.468453,-0.0,1.383581
4.37984,-0.0,0.07236806,4.57505e-05,-0.0,0.760549,0.644483,-0.0,1.29066
4.416,-0.0,0.144064,9.103347e-06,-0.0,0.8254477,0.5579453,-0.0,1.17449
4.45216,-0.0,0.1309246,1.97277e-05,-0.0,0.8374681,0.1939086,-0.0,1.06755
4.48832,-0.0,0.00277415,-0.0,-0.0,0.791162,-0.0,-0.0,0.905873
4.52448,-0.0,-0.0,-0.0,-0.0,0.7632969,-0.0,-0.0,0.801816
4.56064,-0.0,-0.0,-0.0,-0.0,0.771047,-0.0,-0.0,0.8552304
4.5968,-0.0,-0.0,-0.0,-0.0,0.7932137,-0.0,-0.0,0.9239706
4.63296,-0.0,-0.0,0.0331873,-0.0,0.841112,0.482516,-0.0,0.9133491
4.66912,-0.0,-0.0,0.1826782,-0.0,0.9012418,1.22494,-0.0,0.9243433
4.70528,-0.0,-0.0,0.33847,-0.0,0.9374993,1.714775,-0.0,0.928479
4.74144,-0.0,0.0613123,0.512526,-0.0,0.9569695,1.555496,-0.0,0.9616763
4.7776,-0.0,0.3103949,0.574661,-0.0,0.982309,0.9492734,-0.0,0.9791122
4.81376,-0.0,0.3883727,0.36396,-0.0,1.01578,0.6895332,-0.0,0.9461545
4.84992,-0.0,0.381101,0.03556158,-0.0,1.05772,0.8721082,-0.0,0.9239078
4.88608,-0.0,0.350668,-0.0,-0.0,1.06825,1.43885,-0.0,0.952686
4.92224,-0.0,0.328414,-0.0,-0.0,1.05587,2.02079,-0.0,1.00457
4.9584,-0.0,0.287583,-0.0,-0.0,1.05184,2.28421,-0.0,1.07256
4.99456,-0.0,0.205731,-0.0,-0.0,1.06042,2.14698,-0.0,1.16346
5.03072,-0.0,0.349236,-0.0,-0.0,1.16706,1.70128,-0.0,1.33131
5.06688,-0.0,0.8445011,0.353686,-0.0,1.4426,1.38044,-0.0,1.72052
5.10304,-0.0,1.08324,0.4275911,-0.0,1.68128,1.78238,-0.0,2.165
5.1392,-0.0,0.8335713,-0.0,-0.0,1.746365,2.15766,-0.0,2.2978
5.17536,0.1048751,0.0533998,-0.0,-0.0,1.546299,2.20486,-0.0,2.10929
5.21152,0.2836144,-0.0,-0.0,-0.0,1.34827,1.36111,-0.0,1.8574
5.24768,0.29652,-0.0,-0.0,-0.0,1.242549,0.493258,-0.0,1.54766
5.28384,0.0748512,0.04179316,-0.0,-0.0,1.21764,0.277883,-0.0,1.28127
5.32,-0.0,0.09809503,-0.0,-0.0,1.22862,0.398785,-0.0,1.14818
5.35616,-0.0,0.134374,-0.0,-0.0,1.26193,0.5487486,-0.0,1.09866
5.39232,-0.0,0.182876,-0.0,-0.0,1.31398,0.511449,-0.0,1.06215
5.42848,-0.0,0.217966,-0.0,-0.0,1.36143,0.357146,-0.0,1.03152
5.46464,-0.0,0.269046,-0.0,-0.0,1.39961,0.166918,-0.0,1.00782
5.5008,-0.0,0.308261,-0.0,-0.0,1.43341,0.09013513,-0.0,0.993203
5.53696,-0.0,0.346534,-0.0,-0.0,1.4653,0.09475846,-0.0,0.96993
5.57312,-0.0,0.397292,-0.0,-0.0,1.49705,0.1279913,-0.0,0.9297789
5.60928,-0.0,0.418686,-0.0,-0.0,1.53411,0.197721,-0.0,0.8929669
5.64544,-0.0,0.3878044,-0.0,-0.0,1.57135,0.2779008,-0.0,0.8654773
5.6816,-0.0,0.3688104,-0.0,-0.0,1.6111,0.274659,-0.0,0.8397982
5.71776,-0.0,0.394259,-0.0,-0.0,1.654614,0.163463,-0.0,0.8095145
5.75392,-0.0,0.423808,-0.0,-0.0,1.6995,0.0552948,-0.0,0.782661
5.79008,-0.0,0.430101,-0.0,-0.0,1.73308,0.03607552,-0.0,0.7599818
5.82624,-0.0,0.460797,-0.0,-0.0,1.77169,0.09758835,-0.0,0.747824
5.8624,-0.0,0.47186,-0.0,-0.0,1.8064,0.238914,-0.0,0.754937
5.89856,-0.0,0.5084746,-0.0,-0.0,1.84554,0.4192199,-0.0,0.7670336
5.93472,-0.0,0.5084733,-0.0,-0.0,1.87343,0.689348,-0.0,0.763724
5.97088,-0.0,0.4413961,3.38717e-06,-0.0,1.877513,0.958599,-0.0,0.734726
6.00704,-0.0,0.3772562,-0.0,-0.0,1.86387,0.9990159,-0.0,0.70226
6.0432,-0.0,0.362738,-0.0,-0.0,1.84318,0.710505,-0.0,0.6821058
6.07936,-0.0,0.375711,-0.0,-0.0,1.82213,0.373829,-0.0,0.6728825
6.11552,-0.0,0.366764,-0.0,-0.0,1.80187,0.226278,-0.0,0.665734
6.15168,-0.0,0.3640538,-0.0,-0.0,1.78213,0.1721905,-0.0,0.6589669
6.18784,-0.0,0.3522761,-0.0,-0.0,1.75518,0.137173,-0.0,0.6618072
6.224,-0.0,0.341328,-0.0,-0.0,1.72001,0.12186,-0.0,0.672082
6.26016,-0.0,0.3409309,-0.0,-0.0,1.6813,0.140772,-0.0,0.6635871
6.29632,-0.0,0.366284,-0.0,-0.0,1.64696,0.217889,-0.0,0.6241891
6.33248,-0.0,0.395946,-0.0,-0.0,1.618757,0.4018027,-0.0,0.5850289
6.36864,-0.0,0.359826,1.40206e-05,-0.0,1.58239,0.6330685,-0.0,0.575554
6.4048,-0.0,0.274477,-0.0,-0.0,1.53661,0.7439236,-0.0,0.5877422
6.44096,-0.0,0.243673,-0.0,-0.0,1.49409,0.636934,-0.0,0.606044
6.47712,-0.0,0.2616497,-0.0,-0.0,1.46056,0.409809,-0.0,0.6319673
6.51328,-0.0,0.251576,2.6475e-05,-0.0,1.42645,0.295162,-0.0,0.655669
6.54944,-0.0,0.222294,3.071517e-05,-0.0,1.39173,0.313222,-0.0,0.6546116
6.5856,-0.0,0.189904,2.24317e-05,-0.0,1.35294,0.352194,-0.0,0.631164
6.62176,-0.0,0.1886,-0.0,-0.0,1.32114,0.31631,-0.0,0.6224179
6.65792,-0.0,0.182009,-0.0,-0.0,1.28982,0.264353,-0.0,0.646398
6.69408,-0.0,0.174598,-0.0,-0.0,1.26149,0.2569883,-0.0,0.669399
6.73024,-0.0,0.165864,-0.0,-0.0,1.23349,0.2834681,-0.0,0.65496
6.7664,-0.0,0.1883043,-0.0,-0.0,1.20928,0.299242,-0.0,0.611714
6.80256,-0.0,0.226096,-0.0,-0.0,1.19588,0.4329782,-0.0,0.5810702
6.83872,-0.0,0.212419,-0.0,-0.0,1.1891,0.7450507,-0.0,0.5868366
6.87488,-0.0,0.164198,-0.0,-0.0,1.17225,1.112387,-0.0,0.6139355
6.91104,-0.0,0.0910782,-0.0,-0.0,1.14723,1.57146,-0.0,0.637737
6.9472,-0.0,0.0125054,-0.0,-0.0,1.11879,2.02311,-0.0,0.6393797
6.98336,-0.0,-0.0,-0.0,-0.0,1.085654,2.13236,-0.0,0.641754
7.01952,-0.0,1.62573e-05,-0.0,-0.0,1.05624,1.83786,-0.0,0.6474731
7.05568,-0.0,0.02048164,1.26148e-05,-0.0,1.03462,1.29471,-0.0,0.6617676
7.09184,-0.0,0.0573403,-0.0,-0.0,1.02575,0.8876173,-0.0,0.683345
7.128,-0.0,0.1038052,3.480674e-05,-0.0,1.0443,0.6997203,-0.0,0.698972
7.16416,-0.0,0.230109,0.192158,-0.0,1.13371,0.5655936,-0.0,0.7674235
7.20032,-0.0,0.507862,0.561829,-0.0,1.24955,0.377469,-0.0,0.9525423
7.23648,-0.0,0.7043457,0.43895,-0.0,1.27306,0.110178,-0.0,1.13674
7.27264,-0.0,0.5439436,-0.0,-0.0,1.22466,-0.0,-0.0,1.10925
7.3088,-0.0,0.238553,-0.0,-0.0,1.14006,0.03645169,-0.0,0.8959085
7.34496,-0.0,0.0901644,-0.0,-0.0,1.03824,0.17373,-0.0,0.6835388
7.38112,-0.0,0.06366075,-0.0,-0.0,0.951056,0.247408,-0.0,0.5980582
7.41728,-0.0,0.08579463,-0.0,-0.0,0.8988337,0.32533,-0.0,0.5752966
7.45344,-0.0,0.129197,3.09529e-05,-0.0,0.8741448,0.508276,-0.0,0.5780305
7.4896,-0.0,0.122211,4.55989e-05,-0.0,0.8572412,0.831669,-0.0,0.587205
7.52576,-0.0,0.0607955,-0.0,-0.0,0.8434,1.12126,-0.0,0.6007523
7.56192,-0.0,0.0211614,6.407577e-05,-0.0,0.8301914,1.14978,-0.0,0.611695
7.59808,-0.0,0.019161,4.79723e-05,-0.0,0.81576,0.9288733,-0.0,0.6172246
7.63424,-0.0,0.04570658,2.64181e-05,-0.0,0.804074,0.598013,-0.0,0.612539
7.6704,-0.0,0.07051215,-0.0,-0.0,0.797249,0.3842795,-0.0,0.610128
7.70656,-0.0,0.0953905,7.416267e-06,-0.0,0.795924,0.3231325,-0.0,0.6272279
7.74272,-0.0,0.09172997,8.030347e-06,-0.0,0.7947383,0.345258,-0.0,0.6655566
7.77888,-0.0,0.06600699,-0.0,-0.0,0.785043,0.3784725,-0.0,0.707308
7.81504,-0.0,0.06156279,-0.0,-0.0,0.7773376,0.3791106,-0.0,0.7248182
7.8512,-0.0,0.0525771,-0.0,-0.0,0.7671592,0.386022,-0.0,0.7122195
7.88736,-0.0,0.0338075,-0.0,-0.0,0.756502,0.431569,-0.0,0.6833476
7.92352,-0.0,0.0151051,-0.0,-0.0,0.7460005,0.4799106,-0.0,0.6631357
7.95968,-0.0,0.0110232,-0.0,-0.0,0.73766,0.499671,-0.0,0.656853
7.99584,-0.0,0.02362,-0.0,-0.0,0.730181,0.442857,-0.0,0.6515349
8.032,-0.0,0.04016219,-0.0,-0.0,0.7243954,0.4007269,-0.0,0.648381
8.06816,-0.0,0.05836473,1.01875e-06,-0.0,0.72513,0.416024,-0.0,0.641848
8.10432,-0.0,0.06766152,0.00765297,-0.0,0.729584,0.489655,-0.0,0.6315761
8.14048,-0.0,0.0767656,0.04334129,-0.0,0.7310566,0.580765,-0.0,0.6045304
8.17664,-0.0,0.08525514,0.03593302,-0.0,0.7337786,0.622266,-0.0,0.5557312
8.2128,-0.0,0.0861839,5.42752e-05,-0.0,0.7405467,0.579239,-0.0,0.5053
8.24896,-0.0,0.07883858,-0.0,-0.0,0.737871,0.45492,-0.0,0.477287
8.28512,-0.0,0.07429253,-0.0,-0.0,0.7225634,0.331423,-0.0,0.472635
8.32128,-0.0,0.08671414,-0.0,-0.0,0.707563,0.3130414,-0.0,0.4805774
8.35744,-0.0,0.09516557,-0.0,-0.0,0.696308,0.4265862,-0.0,0.49364
8.3936,-0.0,0.08937726,-0.0,-0.0,0.691065,0.656211,-0.0,0.507432
8.42976,-0.0,0.07873166,-0.0,-0.0,0.700524,0.8476992,-0.0,0.5304613
8.46592,-0.0,0.0949549,0.0001021296,-0.0,0.7151009,0.839187,-0.0,0.572904
8.50208,-0.0,0.10988,1.23499e-05,-0.0,0.7054399,0.649088,-0.0,0.60683
8.53824,-0.0,0.1094806,-0.0,-0.0,0.685486,0.4146909,-0.0,0.6058897
8.5744,-0.0,0.101217,-0.0,-0.0,0.674691,0.266636,-0.0,0.581945
8.61056,-0.0,0.08860973,-0.0,-0.0,0.663051,0.226486,-0.0,0.5542771
8.64672,-0.0,0.07101983,-0.0,-0.0,0.643701,0.249235,-0.0,0.527025
8.68288,-0.0,0.0699768,2.56193e-05,-0.0,0.6284553,0.310736,-0.0,0.499569
8.71904,-0.0,0.07196534,9.010676e-05,-0.0,0.620613,0.380968,-0.0,0.477028
8.7552,-0.0,0.07076359,9.92625e-05,-0.0,0.6217394,0.435125,-0.0,0.466777
8.79136,-0.0,0.09330144,0.0739982,-0.0,0.6415629,0.4498298,-0.0,0.47941
8.82752,-0.0,0.174467,0.1842959,-0.0,0.6707718,0.435271,-0.0,0.532019
8.86368,-0.0,0.237668,0.163398,-0.0,0.6727109,0.410274,-0.0,0.5953733
8.89984,-0.0,0.198509,0.01948379,-0.0,0.654329,0.377141,-0.0,0.6066923
8.936,-0.0,0.119406,-0.0,-0.0,0.6420628,0.3585194,-0.0,0.547164
8.97216,-0.0,0.08797946,-0.0,-0.0,0.6322041,0.3315,-0.0,0.471858
9.00832,-0.0,0.06665686,-0.0,-0.0,0.6118743,0.308379,-0.0,0.43749
9.04448,-0.0,0.0441981,-0.0,-0.0,0.591762,0.3129506,-0.0,0.436641
9.08064,-0.0,0.0429101,3.4162e-06,-0.0,0.582877,0.313723,-0.0,0.442806
9.1168,-0.0,0.0440779,-0.0,-0.0,0.5771927,0.296837,-0.0,0.440148
9.15296,-0.0,0.04311189,-0.0,-0.0,0.573738,0.258561,-0.0,0.423286
9.18912,-0.0,0.04294451,-0.0,-0.0,0.5763757,0.220055,-0.0,0.404509
9.22528,-0.0,0.0389546,-0.0,-0.0,0.5793091,0.19678,-0.0,0.399795
9.26144,-0.0,0.0320795,-0.0,-0.0,0.575478,0.1910136,-0.0,0.4078725
9.2976,-0.0,0.0342748,-0.0,-0.0,0.571629,0.200125,-0.0,0.417302
9.33376,-0.0,0.0484485,-0.0,-0.0,0.574512,0.22759,-0.0,0.4246401
9.36992,-0.0,0.0619579,3.573166e-05,-0.0,0.5729606,0.252833,-0.0,0.4300972
9.40608,-0.0,0.06744323,1.27583e-05,-0.0,0.564391,0.285266,-0.0,0.428364
9.44224,-0.0,0.063467,0.00377309,-0.0,0.5574537,0.3134557,-0.0,0.418114
9.4784,-0.0,0.06716511,0.0257506,-0.0,0.55435,0.323755,-0.0,0.406465
9.51456,-0.0,0.07836852,0.0394854,-0.0,0.551802,0.3245623,-0.0,0.401271
9.55072,-0.0,0.08176567,0.0373876,-0.0,0.549242,0.316771,-0.0,0.402533
9.58688,-0.0,0.07612704,0.0236643,-0.0,0.5458121,0.311355,-0.0,0.405312
9.62304,-0.0,0.07642128,0.00485947,-0.0,0.546338,0.3295316,-0.0,0.4063946
9.6592,-0.0,0.07221016,3.281157e-05,-0.0,0.548126,0.347031,-0.0,0.405409
9.69536,-0.0,0.07082832,-0.0,-0.0,0.551393,0.3570253,-0.0,0.409518
9.73152,-0.0,0.06945879,-0.0,-0.0,0.550496,0.3839419,-0.0,0.420021
9.76768,-0.0,0.06530789,-0.0,-0.0,0.5448281,0.443405,-0.0,0.430479
9.80384,-0.0,0.0582978,-0.0,-0.0,0.54344,0.499058,-0.0,0.4328342
9.84,-0.0,0.0423027,-0.0,-0.0,0.544291,0.5327535,-0.0,0.430812
9.87616,-0.0,0.0383088,-0.0,-0.0,0.5422202,0.505885,-0.0,0.4263922
9.91232,-0.0,0.04352931,-0.0,-0.0,0.540242,0.4696089,-0.0,0.438001
9.94848,-0.0,0.0543674,-0.0,-0.0,0.532033,0.349226,-0.0,0.404279
9.98464,-0.0,0.0195652,0.90876,-0.0,0.561537,0.484699,-0.0,0.5483656