File: nmf-with-peak-shifting/xrd-multimodal-segmentations.csv
two_theta,component-0,component-1,component-2,component-3,component-4,component-5,component-6,component-7
0.8,0.0315137,0.0266375,-0.0,-0.0,0.189189,-0.0,0.233643,0.315836
0.81808,-0.0,-0.0,-0.0,0.08528142,0.17602,-0.0,-0.0,-0.0
0.83616,-0.0,-0.0,-0.0,0.0510476,0.1960825,-0.0,-0.0,-0.0
0.85424,-0.0,-0.0,-0.0,-0.0,0.201165,-0.0,-0.0,-0.0
0.87232,-0.0,-0.0,-0.0,-0.0,0.207311,-0.0,-0.0,-0.0
0.8904,-0.0,-0.0,-0.0,-0.0,0.210054,-0.0,-0.0,-0.0
0.90848,-0.0,-0.0,-0.0,-0.0,0.213825,-0.0,-0.0,-0.0
0.92656,-0.0,-0.0,-0.0,-0.0,0.215872,-0.0,-0.0,-0.0
0.94464,-0.0,-0.0,-0.0,-0.0,0.218016,-0.0,-0.0,-0.0
0.96272,-0.0,-0.0,-0.0,-0.0,0.219267,-0.0,-0.0,-0.0
0.9808,-0.0,-0.0,-0.0,-0.0,0.222065,-0.0,-0.0,-0.0
0.99888,-0.0,-0.0,-0.0,-0.0,0.223239,-0.0,-0.0,-0.0
1.01696,-0.0,-0.0,-0.0,-0.0,0.224577,-0.0,-0.0,-0.0
1.03504,-0.0,-0.0,-0.0,-0.0,0.226734,-0.0,-0.0,-0.0
1.05312,-0.0,-0.0,-0.0,-0.0,0.228567,-0.0,-0.0,-0.0
1.0712,-0.0,-0.0,-0.0,-0.0,0.229762,-0.0,-0.0,-0.0
1.08928,-0.0,-0.0,-0.0,-0.0,0.231479,-0.0,-0.0,-0.0
1.10736,-0.0,-0.0,-0.0,-0.0,0.233198,-0.0,-0.0,-0.0
1.12544,-0.0,-0.0,-0.0,-0.0,0.235249,-0.0,-0.0,-0.0
1.14352,-0.0,-0.0,-0.0,-0.0,0.236755,-0.0,-0.0,-0.0
1.1616,-0.0,-0.0,-0.0,-0.0,0.238401,-0.0,-0.0,-0.0
1.17968,-0.0,-0.0,-0.0,-0.0,0.240008,-0.0,-0.0,-0.0
1.19776,-0.0,-0.0,-0.0,-0.0,0.242045,-0.0,-0.0,-0.0
1.21584,-0.0,-0.0,-0.0,-0.0,0.244286,-0.0,-0.0,-0.0
1.23392,-0.0,-0.0,-0.0,-0.0,0.245773,-0.0,-0.0,-0.0
1.252,-0.0,-0.0,-0.0,-0.0,0.248821,-0.0,-0.0,-0.0
1.27008,-0.0,-0.0,-0.0,-0.0,0.2516738,-0.0,-0.0,-0.0
1.28816,-0.0,1.58751e-06,-0.0,-0.0,0.254708,-0.0,-0.0,-0.0
1.30624,-0.0,0.00154404,-0.0,-0.0,0.259567,-0.0,-0.0,-0.0
1.32432,-0.0,0.00369403,-0.0,-0.0,0.2653085,-0.0,-0.0,-0.0
1.3424,-0.0,0.0023534,-0.0,-0.0,0.2703777,-0.0,-0.0,-0.0
1.36048,-0.0,0.00509894,-0.0,-0.0,0.275336,-0.0,-0.0,-0.0
1.37856,-0.0,0.00172847,-0.0,-0.0,0.278293,-0.0,-0.0,-0.0
1.39664,-0.0,0.00186366,-0.0,-0.0,0.280481,-0.0,-0.0,-0.0
1.41472,-0.0,1.22635e-05,-0.0,-0.0,0.28111,-0.0,-0.0,-0.0
1.4328,-0.0,4.03987e-06,-0.0,-0.0,0.2818418,-0.0,-0.0,-0.0
1.45088,-0.0,-0.0,-0.0,-0.0,0.280231,-0.0,-0.0,5.41592e-06
1.46896,0.000418524,-0.0,-0.0,-0.0,0.2810014,-0.0,-0.0,0.0148115
1.48704,0.000789289,-0.0,-0.0,0.006272247,0.281395,-0.0,-0.0,0.0202074
1.50512,0.000520062,-0.0,-0.0,0.0181852,0.2822943,-0.0,-0.0,0.0230264
1.5232,-0.0,-0.0,-0.0,0.0146418,0.284208,-0.0,-0.0,0.0105576
1.54128,0.0009808724,-0.0,-0.0,0.0165324,0.287158,-0.0,-0.0,0.016706
1.55936,-0.0,-0.0,-0.0,0.006983536,0.287622,-0.0,-0.0,0.000462294
1.57744,-0.0,-0.0,-0.0,-0.0,0.291386,-0.0,-0.0,0.00708481
1.59552,-0.0,-0.0,-0.0,-0.0,0.29443,-0.0,-0.0,0.008898496
1.6136,-0.0,-0.0,-0.0,-0.0,0.29762,-0.0,-0.0,0.004703857
1.63168,-0.0,-0.0,-0.0,-0.0,0.3012563,-0.0,-0.0,0.0187858
1.64976,-0.0,-0.0,-0.0,-0.0,0.305106,-0.0,-0.0,0.0244821
1.66784,-0.0,-0.0,-0.0,-0.0,0.310034,-0.0,-0.0,0.0521309
1.68592,-0.0,-0.0,-0.0,-0.0,0.31388,-0.0,-0.0,0.0775011
1.704,-0.0,-0.0,-0.0,-0.0,0.319201,-0.0,-0.0,0.109072
1.72208,-0.0,-0.0,-0.0,-0.0,0.32351,-0.0,-0.0,0.132504
1.74016,-0.0,-0.0,-0.0,-0.0,0.328842,-0.0,-0.0,0.136599
1.75824,-0.0,-0.0,-0.0,-0.0,0.33348,-0.0,-0.0,0.1254967
1.77632,-0.0,-0.0,-0.0,-0.0,0.337914,-0.0,-0.0,0.0916336
1.7944,-0.0,-0.0,-0.0,-0.0,0.344008,-0.0,-0.0,0.0587724
1.81248,-0.0,-0.0,-0.0,-0.0,0.349258,-0.0,-0.0,0.02778559
1.83056,-0.0,-0.0,-0.0,-0.0,0.354222,-0.0,-0.0,0.00105003
1.84864,-0.0,-0.0,-0.0,-0.0,0.360093,-0.0,-0.0,-0.0
1.86672,-0.0,-0.0,-0.0,-0.0,0.366962,-0.0,-0.0,-0.0
1.8848,-0.0,-0.0,-0.0,-0.0,0.373996,-0.0,-0.0,-0.0
1.90288,-0.0,-0.0,-0.0,-0.0,0.3814203,-0.0,-0.0,-0.0
1.92096,-0.0,-0.0,-0.0,-0.0,0.389938,-0.0,-0.0,-0.0
1.93904,-0.0,-0.0,-0.0,-0.0,0.397269,-0.0,-0.0,-0.0
1.95712,-0.0,-0.0,-0.0,-0.0,0.4065436,-0.0,-0.0,-0.0
1.9752,-0.0,-0.0,-0.0,-0.0,0.41686,-0.0,-0.0,-0.0
1.99328,-0.0,-0.0,-0.0,-0.0,0.427655,-0.0,-0.0,-0.0
2.01136,-0.0,-0.0,-0.0,-0.0,0.4400668,-0.0,-0.0,-0.0
2.02944,-0.0,-0.0,-0.0,-0.0,0.451843,-0.0,-0.0,-0.0
2.04752,-0.0,-0.0,-0.0,-0.0,0.464474,-0.0,-0.0,-0.0
2.0656,-0.0,-0.0,-0.0,-0.0,0.4765529,-0.0,-0.0,-0.0
2.08368,-0.0,-0.0,-0.0,-0.0,0.488764,-0.0,-0.0,-0.0
2.10176,-0.0,-0.0,-0.0,-0.0,0.5007227,-0.0,-0.0,-0.0
2.11984,-0.0,-0.0,-0.0,-0.0,0.512835,-0.0,-0.0,-0.0
2.13792,-0.0,-0.0,-0.0,-0.0,0.5269977,-0.0,-0.0,-0.0
2.156,-0.0,-0.0,-0.0,-0.0,0.5394625,-0.0,-0.0,-0.0
2.17408,-0.0,6.103138e-06,-0.0,-0.0,0.5551203,-0.0,-0.0,-0.0
2.19216,-0.0,0.00252923,-0.0,-0.0,0.572375,-0.0,-0.0,-0.0
2.21024,-0.0,0.006251536,-0.0,-0.0,0.591223,-0.0,-0.0,-0.0
2.22832,-0.0,0.009110663,-0.0,-0.0,0.6121067,-0.0,-0.0,-0.0
2.2464,-0.0,0.006248648,-0.0,-0.0,0.6306597,-0.0,-0.0,-0.0
2.26448,-0.0,0.009569852,-0.0,-0.0,0.649115,-0.0,-0.0,-0.0
2.28256,-0.0,0.002373309,-0.0,-0.0,0.6626088,-0.0,-0.0,-0.0
2.30064,-0.0,0.0063436,-0.0,-0.0,0.6750227,-0.0,-0.0,-0.0
2.31872,-0.0,0.00503543,-0.0,-0.0,0.68552,-0.0,-0.0,-0.0
2.3368,-0.0,0.009358166,-0.0,-0.0,0.694607,-0.0,-0.0,-0.0
2.35488,-0.0,0.0186644,-0.0,-0.0,0.7040844,-0.0,-0.0,-0.0
2.37296,-0.0,0.0173942,-0.0,0.007505578,0.7120273,-0.0,-0.0,-0.0
2.39104,-0.0,0.0284791,-0.0,0.0337457,0.720811,-0.0,2.72234e-06,2.28866e-05
2.40912,-0.0,0.0263126,-0.0,0.07425161,0.727195,-0.0,2.0097e-06,-0.0
2.4272,-0.0,0.0336622,-0.0,0.107761,0.7326121,-0.0,-0.0,-0.0
2.44528,-0.0,0.0341721,-0.0,0.146819,0.7348133,-0.0,-0.0,-0.0
2.46336,-0.0,0.0346109,-0.0,0.172966,0.7352107,-0.0,-0.0,-0.0
2.48144,-0.0,0.0386921,-0.0,0.193001,0.7342157,-0.0,-0.0,-0.0
2.49952,-0.0,0.03723618,-0.0,0.197757,0.7282018,-0.0,-0.0,0.00015129
2.5176,-0.0,0.04201,-0.0,0.2022818,0.724545,-0.0,-0.0,0.0362468
2.53568,-0.0,0.0419512,-0.0,0.213159,0.7240842,-0.0,-0.0,0.08092234
2.55376,-0.0,0.0454683,-0.0,0.2517981,0.7285266,-0.0,-0.0,0.114076
2.57184,-0.0,0.0484433,-0.0,0.297121,0.74435,-0.0,-0.0,0.1454234
2.58992,-0.0,0.0471294,-0.0,0.3477634,0.7685624,-0.0,-0.0,0.136726
2.608,0.0409567,0.05915767,-0.0,0.361009,0.8215538,-0.0,-0.0,0.117773
2.62608,0.131846,0.04576985,-0.0,0.303828,0.9022155,-0.0,-0.0,0.058933
2.64416,0.1834062,0.0257989,-0.0,0.182232,1.00359,-0.0,-0.0,0.0345071
2.66224,0.3092,0.00834055,-0.0,0.09339178,1.15528,-0.0,-0.0,0.06753992
2.68032,0.312482,-0.0,-0.0,0.0007926562,1.29037,-0.0,-0.0,0.0339913
2.6984,0.329115,-0.0,-0.0,-0.0,1.40575,-0.0,-0.0,0.04499172
2.71648,0.265889,0.0284648,-0.0,-0.0,1.438816,-0.0,-0.0,-0.0
2.73456,0.1829569,0.07503856,-0.0,-0.0,1.40319,-0.0,-0.0,-0.0
2.75264,0.09629651,0.117222,-0.0,-0.0,1.28116,-0.0,-0.0,-0.0
2.77072,0.02811237,0.161695,-0.0,-0.0,1.11056,-0.0,-0.0,-0.0
2.7888,-0.0,0.146663,-0.0,-0.0,0.9147089,-0.0,-0.0,-0.0
2.80688,-0.0,0.145015,-0.0,-0.0,0.740396,-0.0,-0.0,-0.0
2.82496,-0.0,0.109721,-0.0,-0.0,0.601033,-0.0,-0.0,0.0237097
2.84304,-0.0,0.06551869,-0.0,-0.0,0.489172,-0.0,-0.0,0.06123658
2.86112,-0.0,0.0584011,-0.0,-0.0,0.412228,-0.0,-0.0,0.09390728
2.8792,-0.0,0.03397482,-0.0,-0.0,0.357209,-0.0,-0.0,0.118868
2.89728,-0.0,0.0323622,-0.0,0.019164,0.319293,-0.0,-0.0,0.130095
2.91536,-0.0,0.0215445,-0.0,0.0395939,0.289251,-0.0,-0.0,0.128707
2.93344,-0.0,0.0206994,-0.0,0.0584357,0.2660253,-0.0,-0.0,0.12914
2.95152,2.13977e-05,0.01826846,-0.0,0.0798029,0.249518,-0.0,-0.0,0.138703
2.9696,0.0003776956,0.0155148,-0.0,0.111065,0.234493,-0.0,-0.0,0.147438
2.98768,0.003373375,0.0147678,-0.0,0.142746,0.2221978,-0.0,-0.0,0.14972
3.00576,0.0101991,0.0130659,-0.0,0.178278,0.21179,-0.0,-0.0,0.163066
3.02384,0.0112661,0.008410989,-0.0,0.212788,0.201382,-0.0,-0.0,0.167656
3.04192,0.0146691,0.0057676,-0.0,0.2522049,0.193621,-0.0,-0.0,0.176638
3.06,0.0129282,0.004450597,-0.0,0.281027,0.185729,-0.0,-0.0,0.171756
3.07808,0.0105054,0.00280544,-0.0,0.287809,0.179521,-0.0,-0.0,0.1758699
3.09616,0.009324723,0.00507339,-0.0,0.277882,0.174708,-0.0,-0.0,0.183798
3.11424,0.0073627,0.00491848,-0.0,0.252327,0.169488,-0.0,-0.0,0.19586
3.13232,0.008710283,0.005944469,-0.0,0.22245,0.165682,-0.0,-0.0,0.208018
3.1504,0.008440831,0.005842483,-0.0,0.198203,0.161163,-0.0,-0.0,0.214208
3.16848,0.0126938,0.00526123,-0.0,0.178712,0.158047,-0.0,-0.0,0.212115
3.18656,0.0154167,0.0037886,-0.0,0.172837,0.154234,-0.0,-0.0,0.20307
3.20464,0.0179056,0.00117661,-0.0,0.179091,0.15046,-0.0,-0.0,0.195398
3.22272,0.0187475,7.963103e-05,-0.0,0.199684,0.147475,-0.0,-0.0,0.183507
3.2408,0.0181692,-0.0,-0.0,0.212478,0.144624,-0.0,-0.0,0.163847
3.25888,0.01773,-0.0,-0.0,0.216424,0.142558,-0.0,-0.0,0.149637
3.27696,0.0146002,-0.0,-0.0,0.198327,0.140584,-0.0,-0.0,0.132635
3.29504,0.0116173,4.74045e-05,-0.0,0.171517,0.1393352,-0.0,-0.0,0.133613
3.31312,0.006781888,0.00188913,-0.0,0.151931,0.138263,-0.0,-0.0,0.138508
3.3312,0.00487757,0.004012718,-0.0,0.144466,0.137295,-0.0,-0.0,0.149113
3.34928,0.00232768,0.006501998,-0.0,0.151217,0.136085,-0.0,-0.0,0.158043
3.36736,0.00160382,0.00723147,-0.0,0.180866,0.135199,-0.0,8.65508e-06,0.165165
3.38544,0.003482679,0.008740618,-0.0,0.234881,0.134001,-0.0,-0.0,0.156366
3.40352,0.002951504,0.007941396,-0.0,0.315148,0.132191,-0.0,-0.0,0.12977
3.4216,0.00489759,0.007583246,-0.0,0.404342,0.131208,-0.0,-0.0,0.09071273
3.43968,0.00507571,0.007592999,-0.0,0.469668,0.130228,-0.0,-0.0,0.0448078
3.45776,0.006636478,0.00600865,-0.0,0.491808,0.129837,-0.0,-0.0,0.02013056
3.47584,0.00812935,0.00565217,-0.0,0.465025,0.129505,-0.0,-0.0,0.0208506
3.49392,0.006416516,0.00379857,-0.0,0.412476,0.1293045,-0.0,-0.0,0.04848439
3.512,0.007730613,0.003600845,-0.0,0.3467897,0.130249,-0.0,-0.0,0.08755946
3.53008,0.006366971,0.003691934,-0.0,0.29494,0.130338,-0.0,-0.0,0.119943
3.54816,0.00700746,0.00303981,-0.0,0.279722,0.131232,-0.0,-0.0,0.141755
3.56624,0.00546813,0.00388207,-0.0,0.283708,0.131648,-0.0,2.699066e-06,0.13988
3.58432,0.00626135,0.00337924,-0.0,0.295217,0.1320725,-0.0,-0.0,0.133651
3.6024,0.004317055,0.00420601,-0.0,0.299433,0.131703,-0.0,-0.0,0.1258404
3.62048,0.00306815,0.00429147,-0.0,0.2944412,0.132022,-0.0,-0.0,0.130053
3.63856,0.00331963,0.005905988,-0.0,0.288013,0.132327,-0.0,7.040732e-06,0.140925
3.65664,0.00185404,0.0062195,-0.0,0.286386,0.131871,-0.0,-0.0,0.146758
3.67472,0.00308247,0.00689517,-0.0,0.2895337,0.132066,-0.0,-0.0,0.153193
3.6928,0.00358903,0.0075217,-0.0,0.295784,0.131915,-0.0,-0.0,0.155675
3.71088,0.00319658,0.00667657,-0.0,0.308125,0.131905,-0.0,-0.0,0.155385
3.72896,0.006020323,0.00710254,-0.0,0.300645,0.132539,-0.0,-0.0,0.1551294
3.74704,0.0047692,0.00588039,-0.0,0.2798953,0.132132,-0.0,-0.0,0.163092
3.76512,0.00725682,0.005298378,-0.0,0.244633,0.132997,-0.0,-0.0,0.178835
3.7832,0.007850365,0.00519375,-0.0,0.213596,0.132925,-0.0,-0.0,0.193103
3.80128,0.01004938,0.0037363,-0.0,0.193212,0.13298,-0.0,-0.0,0.20484
3.81936,0.0121307,0.0033846,-0.0,0.190456,0.132519,-0.0,-0.0,0.209215
3.83744,0.0138029,0.00212943,-0.0,0.201182,0.131864,-0.0,-0.0,0.206893
3.85552,0.0157939,0.00148506,-0.0,0.2245739,0.131813,-0.0,-0.0,0.204564
3.8736,0.0164658,0.000302,-0.0,0.234582,0.131211,-0.0,-0.0,0.198764
3.89168,0.0168874,-0.0,-0.0,0.24326,0.131408,-0.0,-0.0,0.207372
3.90976,0.017161,-0.0,-0.0,0.246085,0.131706,-0.0,-0.0,0.221035
3.92784,0.01794714,-0.0,-0.0,0.239685,0.1323022,-0.0,-0.0,0.245403
3.94592,0.01919159,-0.0,-0.0,0.2583677,0.1328332,-0.0,-0.0,0.284341
3.964,0.02122571,-0.0,-0.0,0.296561,0.132771,-0.0,-0.0,0.3166004
3.98208,0.02307307,-0.0,-0.0,0.363857,0.132834,-0.0,-0.0,0.3429977
4.00016,0.0257754,-0.0,-0.0,0.434377,0.132683,-0.0,-0.0,0.349619
4.01824,0.0262013,-0.0,-0.0,0.5119232,0.132338,-0.0,-0.0,0.327244
4.03632,0.0262942,-0.0,-0.0,0.5237195,0.133389,-0.0,-0.0,0.3064948
4.0544,0.02522589,-0.0,-0.0,0.502837,0.135124,-0.0,-0.0,0.2869407
4.07248,0.02434412,-0.0,-0.0,0.465208,0.137496,-0.0,-0.0,0.294452
4.09056,0.0240882,-0.0,-0.0,0.440091,0.1394874,-0.0,-0.0,0.3124076
4.10864,0.0239396,-0.0,-0.0,0.445453,0.141132,-0.0,-0.0,0.336271
4.12672,0.0247942,-0.0,-0.0,0.481376,0.142043,-0.0,-0.0,0.3563521
4.1448,0.0253077,-0.0,-0.0,0.5411905,0.142773,-0.0,-0.0,0.348174
4.16288,0.0263539,-0.0,-0.0,0.60498,0.143604,-0.0,-0.0,0.324848
4.18096,0.0268324,-0.0,-0.0,0.652994,0.145009,-0.0,-0.0,0.282121
4.19904,0.0290653,-0.0,-0.0,0.673943,0.147463,-0.0,-0.0,0.248936
4.21712,0.0306511,-0.0,-0.0,0.678503,0.150714,-0.0,4.63442e-06,0.232867
4.2352,0.0323177,-0.0,-0.0,0.657249,0.155175,-0.0,-0.0,0.243902
4.25328,0.0326502,-0.0,-0.0,0.613228,0.1604032,-0.0,5.17157e-06,0.2907827
4.27136,0.0315275,-0.0,-0.0,0.583171,0.166109,-0.0,-0.0,0.371046
4.28944,0.0309733,-0.0,-0.0,0.5420868,0.171071,-0.0,-0.0,0.463921
4.30752,0.0282661,-0.0,-0.0,0.5524886,0.175053,-0.0,-0.0,0.5690707
4.3256,0.0314371,0.00107443,-0.0,0.5882791,0.178931,-0.0,-0.0,0.648632
4.34368,0.0339658,0.00200844,-0.0,0.6518535,0.18222,-0.0,-0.0,0.696106
4.36176,0.04038607,0.00164416,-0.0,0.719722,0.188541,-0.0,-0.0,0.7087724
4.37984,0.0425948,0.001506017,-0.0,0.7441094,0.195931,-0.0,-0.0,0.674815
4.39792,0.0404857,0.0003173603,-0.0,0.74012,0.2046311,-0.0,-0.0,0.6493334
4.416,0.03031945,0.0003521055,-0.0,0.6899706,0.211918,-0.0,-0.0,0.617346
4.43408,0.01905497,0.0021391,-0.0,0.608638,0.215864,-0.0,-0.0,0.6111684
4.45216,0.005250567,0.006202179,-0.0,0.5119261,0.216483,-0.0,-0.0,0.615642
4.47024,-0.0,0.0103186,-0.0,0.4030027,0.21398,-0.0,-0.0,0.627218
4.48832,-0.0,0.01412599,-0.0,0.315024,0.209878,-0.0,-0.0,0.63594
4.5064,8.743312e-06,0.0135292,-0.0,0.241849,0.205494,-0.0,-0.0,0.632833
4.52448,0.000297307,0.0130573,-0.0,0.205862,0.202564,-0.0,-0.0,0.625793
4.54256,0.00451079,0.0132559,-0.0,0.192742,0.201622,-0.0,-0.0,0.6058784
4.56064,0.008488443,0.0121335,-0.0,0.1962411,0.2018544,-0.0,-0.0,0.589827
4.57872,0.0155878,0.0105252,-0.0,0.217173,0.204675,-0.0,-0.0,0.580488
4.5968,0.028151,0.00835708,-0.0,0.263252,0.208871,-0.0,-0.0,0.565395
4.61488,0.03994491,0.00553588,-0.0,0.339039,0.213958,-0.0,-0.0,0.5370322
4.63296,0.05197142,1.72154e-05,-0.0,0.478061,0.221156,-0.0,-0.0,0.495914
4.65104,0.06337869,-0.0,-0.0,0.6720865,0.227635,-0.0,-0.0,0.400945
4.66912,0.07395512,-0.0,-0.0,0.9036906,0.2328186,-0.0,0.400201,0.2816614
4.6872,0.08535173,-0.0,-0.0,1.09836,0.237004,-0.0,0.533335,0.14134
4.70528,0.09801779,-0.0,-0.0,1.19732,0.241475,-0.0,0.1662369,0.0336984
4.72336,0.101655,-0.0,-0.0,1.20734,0.246135,-0.0,-0.0,0.000288694
4.74144,0.107705,-0.0,-0.0,1.14104,0.252671,-0.0,-0.0,0.0005099922
4.75952,0.11012,-0.0,-0.0,1.02834,0.258854,-0.0,-0.0,0.0368602
4.7776,0.104614,-0.0,-0.0,0.832726,0.2640674,-0.0,-0.0,0.1341101
4.79568,0.09161086,-0.0,-0.0,0.704118,0.269631,-0.0,-0.0,0.2634985
4.81376,0.0787597,-0.0,-0.0,0.632232,0.2735605,-0.0,-0.0,0.331232
4.83184,0.06287905,-0.0,-0.0,0.650666,0.276395,-0.0,-0.0,0.365093
4.84992,0.05325783,-0.0,-0.0,0.731483,0.277769,-0.0,7.554258e-06,0.341326
4.868,0.0462184,-0.0,-0.0,0.888954,0.276753,-0.0,0.3404654,0.279115
4.88608,0.0439585,-0.0,-0.0,1.07668,0.2747552,-0.0,0.909724,0.18947
4.90416,0.04748098,0.000403489,-0.0,1.26644,0.272021,-0.0,1.39179,0.09718157
4.92224,0.0553529,1.11896e-05,-0.0,1.39129,0.2684618,-0.0,1.642207,0.0163343
4.94032,0.0575961,-0.0,-0.0,1.49271,0.264466,-0.0,1.64558,-0.0
4.9584,0.0573863,-0.0,-0.0,1.55251,0.262859,-0.0,1.37837,-0.0
4.97648,0.0597734,-0.0,-0.0,1.57939,0.264598,-0.0,0.8380819,-0.0
4.99456,0.06520758,-0.0,-0.0,1.57478,0.270633,-0.0,0.1664219,-0.0
5.01264,0.09008236,-0.0,-0.0,1.52173,0.28285,-0.0,-0.0,0.000141379
5.03072,0.110233,-0.0,-0.0,1.42875,0.303392,-0.0,-0.0,0.0480578
5.0488,0.142595,-0.0,-0.0,1.30229,0.3391964,-0.0,-0.0,0.16264
5.06688,0.147612,-0.0,-0.0,1.2483,0.3809321,-0.0,-0.0,0.299596
5.08496,0.153632,-0.0,-0.0,1.32575,0.422533,-0.0,-0.0,0.424458
5.10304,0.113044,-0.0,-0.0,1.50388,0.446723,-0.0,0.05204164,0.5131293
5.12112,0.0530708,-0.0,-0.0,1.77355,0.457169,-0.0,0.36827,0.6158136
5.1392,-0.0,0.0209647,-0.0,2.00758,0.449135,-0.0,0.402157,0.644897
5.15728,-0.0,0.04155516,-0.0,2.12103,0.427215,-0.0,0.177768,0.631154
5.17536,-0.0,0.0453961,-0.0,2.06033,0.3956303,-0.0,-0.0,0.6059553
5.19344,-0.0,0.0345978,-0.0,1.88236,0.3674807,-0.0,2.32725e-05,0.62868
5.21152,-0.0,0.0353821,-0.0,1.6301,0.345966,-0.0,-0.0,0.667018
5.2296,-0.0,0.0332935,-0.0,1.26645,0.330607,-0.0,-0.0,0.729959
5.24768,-0.0,0.0344581,-0.0,0.961333,0.321818,-0.0,-0.0,0.8459483
5.26576,0.003762555,0.032726,-0.0,0.7350112,0.3187228,-0.0,8.65996e-06,0.878439
5.28384,0.016863,0.0332775,-0.0,0.605931,0.31834,-0.0,-0.0,0.869493
5.30192,0.0259564,0.02719345,-0.0,0.555963,0.3191767,-0.0,-0.0,0.7957218
5.32,0.03741929,0.0197935,-0.0,0.548372,0.321356,-0.0,-0.0,0.709851
5.33808,0.0466525,0.0160182,-0.0,0.5721361,0.324643,-0.0,-0.0,0.634955
5.35616,0.05465784,0.008936329,-0.0,0.587424,0.329324,-0.0,-0.0,0.5719123
5.37424,0.058657,0.00659836,-0.0,0.5923631,0.335007,-0.0,-0.0,0.5367819
5.39232,0.06163549,0.00331466,-0.0,0.5750493,0.341864,-0.0,-0.0,0.5205161
5.4104,0.0605337,0.00299419,-0.0,0.5238701,0.3482333,-0.0,-0.0,0.5188083
5.42848,0.05872305,0.00364596,-0.0,0.476376,0.354764,-0.0,-0.0,0.5352145
5.44656,0.055724,0.005646851,-0.0,0.4071657,0.360779,-0.0,-0.0,0.552103
5.46464,0.05358918,0.0080952,-0.0,0.349307,0.366384,-0.0,-0.0,0.5782737
5.48272,0.052801,0.0106866,-0.0,0.3013586,0.371681,-0.0,-0.0,0.598772
5.5008,0.0523099,0.0125418,-0.0,0.269861,0.376362,-0.0,-0.0,0.613366
5.51888,0.05314844,0.0140591,-0.0,0.2602444,0.381091,-0.0,-0.0,0.619421
5.53696,0.05359613,0.0149933,-0.0,0.255598,0.385406,-0.0,-0.0,0.6159161
5.55504,0.0550281,0.0151996,-0.0,0.257008,0.390006,-0.0,-0.0,0.6085152
5.57312,0.0548603,0.0147343,-0.0,0.2594037,0.394303,-0.0,-0.0,0.5961336
5.5912,0.054546,0.0144659,-0.0,0.2707075,0.39889,-0.0,-0.0,0.5812534
5.60928,0.0548148,0.0143341,-0.0,0.287671,0.403683,-0.0,-0.0,0.5579328
5.62736,0.0541702,0.0141551,-0.0,0.308324,0.4080455,-0.0,-0.0,0.5321093
5.64544,0.0550878,0.0144343,-0.0,0.327712,0.412946,-0.0,-0.0,0.5065415
5.66352,0.05471045,0.0148622,-0.0,0.335435,0.418012,-0.0,-0.0,0.4828919
5.6816,0.0549163,0.0148139,-0.0,0.327351,0.4236245,-0.0,-0.0,0.4708253
5.69968,0.05281813,0.0159374,-0.0,0.302683,0.429342,-0.0,-0.0,0.46775
5.71776,0.0517947,0.0168626,-0.0,0.265954,0.435723,-0.0,-0.0,0.4754478
5.73584,0.0494041,0.0187039,-0.0,0.2237549,0.4416328,-0.0,-0.0,0.485339
5.75392,0.0471125,0.02061072,-0.0,0.189871,0.4478552,-0.0,-0.0,0.498781
5.772,0.04861831,0.02219912,-0.0,0.166909,0.453806,-0.0,-0.0,0.503855
5.79008,0.046745,0.0229424,-0.0,0.1551213,0.4578535,-0.0,-0.0,0.500683
5.80816,0.0512873,0.0242752,-0.0,0.160279,0.463505,-0.0,-0.0,0.496666
5.82624,0.0532469,0.0244759,-0.0,0.174304,0.4679676,-0.0,-0.0,0.478825
5.84432,0.061378,0.0228247,-0.0,0.202685,0.4725055,-0.0,-0.0,0.459751
5.8624,0.0674417,0.0229338,-0.0,0.237684,0.476386,-0.0,-0.0,0.433639
5.88048,0.07475992,0.0190856,-0.0,0.283714,0.481417,-0.0,-0.0,0.411644
5.89856,0.083195,0.0180324,-0.0,0.333024,0.485497,-0.0,-0.0,0.3841739
5.91664,0.08181617,0.01260274,-0.0,0.4042033,0.4876867,-0.0,-0.0,0.358253
5.93472,0.08541062,0.0123211,-0.0,0.487982,0.490294,-0.0,-0.0,0.323406
5.9528,0.07762444,0.0107105,-0.0,0.581622,0.489564,-0.0,-0.0,0.2752887
5.97088,0.07528893,0.0110835,-0.0,0.666292,0.489563,-0.0,-0.0,0.223474
5.98896,0.06987412,0.0132195,-0.0,0.719282,0.487371,-0.0,-0.0,0.169409
6.00704,0.0650414,0.013908,-0.0,0.7248795,0.485296,-0.0,-0.0,0.137454
6.02512,0.0619043,0.0161718,-0.0,0.6810953,0.4843303,-0.0,-0.0,0.132529
6.0432,0.05384342,0.0157289,-0.0,0.5931896,0.4815555,-0.0,-0.0,0.154232
6.06128,0.0509539,0.0183686,-0.0,0.489608,0.480087,-0.0,-0.0,0.205652
6.07936,0.0433654,0.0202401,-0.0,0.3906206,0.4777929,-0.0,-0.0,0.2597046
6.09744,0.0408482,0.02193327,-0.0,0.318336,0.476531,-0.0,-0.0,0.310741
6.11552,0.0375283,0.0240893,-0.0,0.2727338,0.474145,-0.0,-0.0,0.3404662
6.1336,0.0324468,0.0244523,-0.0,0.2455653,0.4715672,-0.0,-0.0,0.360737
6.15168,0.03364743,0.0266398,-0.0,0.231758,0.469555,-0.0,-0.0,0.3693603
6.16976,0.02735059,0.02654147,-0.0,0.2176152,0.4651483,-0.0,-0.0,0.371146
6.18784,0.0298208,0.0276129,-0.0,0.211648,0.462538,-0.0,-0.0,0.37946
6.20592,0.0275952,0.0290454,-0.0,0.204245,0.4575759,-0.0,-0.0,0.3775485
6.224,0.0290782,0.0274594,-0.0,0.203539,0.4534476,-0.0,-0.0,0.385463
6.24208,0.0343096,0.0292125,-0.0,0.202989,0.448863,-0.0,-0.0,0.3851417
6.26016,0.0364048,0.0254173,-0.0,0.20538,0.443286,-0.0,-0.0,0.3868001
6.27824,0.04638834,0.0244943,-0.0,0.211382,0.438873,-0.0,-0.0,0.384278
6.29632,0.0502531,0.02155,-0.0,0.2230762,0.4336546,-0.0,-0.0,0.369822
6.3144,0.055723,0.0168355,-0.0,0.252371,0.429872,-0.0,-0.0,0.3500004
6.33248,0.0583312,0.0155478,-0.0,0.297673,0.425001,-0.0,-0.0,0.3108231
6.35056,0.05649996,0.0117225,-0.0,0.363245,0.4197108,-0.0,-0.0,0.2664324
6.36864,0.05646197,0.0109327,-0.0,0.433477,0.413858,-0.0,-0.0,0.214507
6.38672,0.05249782,0.0105302,-0.0,0.494569,0.406797,-0.0,1.79343e-06,0.169898
6.4048,0.0530269,0.009879816,-0.0,0.530105,0.400825,-0.0,-0.0,0.14034
6.42288,0.05219088,0.0110684,-0.0,0.534102,0.394557,-0.0,-0.0,0.126779
6.44096,0.0533441,0.009450148,-0.0,0.499986,0.3898034,-0.0,-0.0,0.138831
6.45904,0.0521517,0.009769675,-0.0,0.4450997,0.3853343,-0.0,-0.0,0.168797
6.47712,0.0528196,0.008678736,-0.0,0.38293,0.381591,-0.0,-0.0,0.21262
6.4952,0.0523205,0.008774299,-0.0,0.3285107,0.377394,-0.0,-0.0,0.254589
6.51328,0.05136652,0.007554414,-0.0,0.2999684,0.373056,-0.0,-0.0,0.293631
6.53136,0.0517778,0.007579981,-0.0,0.2890389,0.3684684,-0.0,-0.0,0.316645
6.54944,0.05008502,0.00648843,-0.0,0.294942,0.363544,-0.0,-0.0,0.3274262
6.56752,0.04992403,0.005881335,-0.0,0.3070569,0.358758,-0.0,-0.0,0.3273512
6.5856,0.0454887,0.005386435,-0.0,0.316524,0.353439,-0.0,-0.0,0.315746
6.60368,0.0426498,0.00634073,-0.0,0.317751,0.3495458,-0.0,-0.0,0.309117
6.62176,0.0385614,0.00778745,-0.0,0.31113,0.3455452,-0.0,-0.0,0.300918
6.63984,0.0349533,0.00890759,-0.0,0.301461,0.341625,-0.0,-0.0,0.299888
6.65792,0.03250149,0.0109405,-0.0,0.296051,0.337967,-0.0,-0.0,0.306204
6.676,0.0300736,0.01197363,-0.0,0.2943032,0.334047,-0.0,-0.0,0.315243
6.69408,0.02917877,0.0132066,-0.0,0.301435,0.3305975,-0.0,1.125953e-06,0.3277773
6.71216,0.0268113,0.0132356,-0.0,0.309705,0.326616,-0.0,-0.0,0.334141
6.73024,0.0245002,0.014354,-0.0,0.320189,0.323359,-0.0,-0.0,0.3377518
6.74832,0.022304,0.0152439,-0.0,0.327541,0.320475,-0.0,-0.0,0.332626
6.7664,0.0184089,0.0162314,-0.0,0.334732,0.317859,-0.0,-0.0,0.321594
6.78448,0.0150679,0.0175088,-0.0,0.360356,0.316172,-0.0,1.06221e-06,0.304749
6.80256,0.009385365,0.0187402,-0.0,0.4047444,0.314652,-0.0,9.348057e-06,0.272972
6.82064,0.00496488,0.02060053,-0.0,0.494138,0.3136154,-0.0,-0.0,0.2321667
6.83872,0.00237716,0.0225716,-0.0,0.5958817,0.312312,-0.0,0.08027836,0.168813
6.8568,0.0110654,0.0242849,-0.0,0.726977,0.309234,-0.0,0.4935494,0.106324
6.87488,0.0324557,0.0231804,-0.0,0.8331016,0.304104,-0.0,1.04356,0.0225167
6.89296,0.04741271,0.0135014,-0.0,0.9061642,0.296161,-0.0,1.55084,-0.0
6.91104,0.0566671,1.98397e-05,-0.0,0.99501,0.289327,-0.0,2.03557,-0.0
6.92912,0.0636804,-0.0,-0.0,1.07545,0.2818898,-0.0,2.39849,-0.0
6.9472,0.06830886,-0.0,-0.0,1.14666,0.275333,-0.0,2.50621,-0.0
6.96528,0.07134529,-0.0,-0.0,1.187577,0.269384,-0.0,2.40135,-0.0
6.98336,0.0677024,-0.0,-0.0,1.20122,0.263946,-0.0,2.06572,-0.0
7.00144,0.06320066,-0.0,-0.0,1.17994,0.261596,-0.0,1.4969,-0.0
7.01952,0.0544836,-0.0,-0.0,1.13112,0.260209,-0.0,0.837286,-0.0
7.0376,0.0456466,-0.0,-0.0,1.06139,0.260889,-0.0,0.1718768,-0.0
7.05568,0.03674886,-0.0,-0.0,0.9746396,0.2629952,-0.0,-0.0,-0.0
7.07376,0.0426326,0.000789955,-0.0,0.8978068,0.2644825,-0.0,-0.0,-0.0
7.09184,0.0501403,0.004529883,-0.0,0.781854,0.264307,-0.0,-0.0,0.0109635
7.10992,0.0535371,-0.0,-0.0,0.676075,0.266,-0.0,-0.0,0.100479
7.128,0.0624527,-0.0,-0.0,0.6031822,0.271607,-0.0,-0.0,0.154227
7.14608,0.07602813,-0.0,-0.0,0.5426471,0.281986,-0.0,-0.0,0.193731
7.16416,0.09374121,-0.0,-0.0,0.4787924,0.298875,-0.0,-0.0,0.226524
7.18224,0.107322,-0.0,-0.0,0.416335,0.318701,-0.0,-0.0,0.268249
7.20032,0.112873,-0.0,-0.0,0.353968,0.337072,-0.0,-0.0,0.3248098
7.2184,0.10182,-0.0,-0.0,0.298033,0.346183,-0.0,-0.0,0.406597
7.23648,0.08022431,-0.0,-0.0,0.259964,0.3461475,-0.0,-0.0,0.515693
7.25456,0.0382376,-0.0,-0.0,0.247385,0.337186,-0.0,-0.0,0.6308281
7.27264,-0.0,0.005380419,-0.0,0.27524,0.325074,-0.0,-0.0,0.7229945
7.29072,-0.0,0.02519181,-0.0,0.306941,0.3121115,-0.0,-0.0,0.7343896
7.3088,-0.0,0.0279408,-0.0,0.297251,0.296915,-0.0,-0.0,0.6942908
7.32688,-0.0,0.0220422,-0.0,0.292948,0.284467,-0.0,-0.0,0.6452375
7.34496,-0.0,0.021643,-0.0,0.296529,0.272061,-0.0,-0.0,0.5500489
7.36304,3.40892e-06,0.0223335,-0.0,0.3055427,0.260176,-0.0,-0.0,0.45225
7.38112,0.0110512,0.0212561,-0.0,0.3151,0.249877,-0.0,-0.0,0.369823
7.3992,0.0198932,0.0194677,-0.0,0.31663,0.24112,-0.0,-0.0,0.308002
7.41728,0.0262797,0.0113235,-0.0,0.332814,0.235421,-0.0,-0.0,0.2816119
7.43536,0.0308855,0.008544555,-0.0,0.366501,0.23108,-0.0,-0.0,0.2545535
7.45344,0.0338737,0.00462529,-0.0,0.431204,0.227399,-0.0,-0.0,0.2271781
7.47152,0.0376461,0.0033344,-0.0,0.513155,0.2242975,-0.0,-0.0,0.186691
7.4896,0.0383486,0.0008948899,-0.0,0.6162638,0.2211736,-0.0,-0.0,0.14084
7.50768,0.04299952,1.75012e-05,-0.0,0.7213444,0.218546,-0.0,0.119034,0.08361799
7.52576,0.0459732,-0.0,-0.0,0.807804,0.214976,-0.0,0.148358,0.0229957
7.54384,0.04541968,-0.0,-0.0,0.8424699,0.212067,-0.0,0.0102189,7.681733e-06
7.56192,0.0413006,-0.0,-0.0,0.8518418,0.210343,-0.0,-0.0,3.91179e-06
7.58,0.0393538,-0.0,-0.0,0.8327425,0.209516,-0.0,-0.0,4.168614e-05
7.59808,0.0402799,-0.0,-0.0,0.7670952,0.208374,-0.0,-0.0,0.00629329
7.61616,0.03854,-0.0,-0.0,0.6707418,0.206835,-0.0,-0.0,0.0540288
7.63424,0.0364379,-0.0,-0.0,0.5650352,0.20629,-0.0,-0.0,0.119534
7.65232,0.0355638,-0.0,-0.0,0.476891,0.206262,-0.0,-0.0,0.176528
7.6704,0.03476844,-0.0,-0.0,0.408671,0.206301,-0.0,-0.0,0.219667
7.68848,0.0342007,4.265262e-05,-0.0,0.366963,0.206659,-0.0,-0.0,0.251944
7.70656,0.03278322,9.640961e-05,-0.0,0.349927,0.20679,-0.0,-0.0,0.270303
7.72464,0.030602,0.000451188,-0.0,0.350805,0.206615,-0.0,-0.0,0.281665
7.74272,0.0275565,0.00162699,-0.0,0.366742,0.206332,-0.0,-0.0,0.2890605
7.7608,0.0265281,0.00284708,-0.0,0.387463,0.205442,-0.0,-0.0,0.293611
7.77888,0.02327031,0.00381657,-0.0,0.4059744,0.203964,-0.0,-0.0,0.297068
7.79696,0.022682,0.00469368,-0.0,0.421264,0.203167,-0.0,-0.0,0.305957
7.81504,0.0205366,0.00588643,-0.0,0.427193,0.201828,-0.0,-0.0,0.314292
7.83312,0.018933,0.00588604,-0.0,0.4333764,0.200716,-0.0,-0.0,0.323174
7.8512,0.01716914,0.0072339,-0.0,0.437667,0.1991685,-0.0,-0.0,0.3257605
7.86928,0.0159479,0.007945045,-0.0,0.4472714,0.197642,-0.0,-0.0,0.3225386
7.88736,0.0163037,0.008661771,-0.0,0.459468,0.1961013,-0.0,-0.0,0.311407
7.90544,0.0180162,0.008982606,-0.0,0.470465,0.194384,-0.0,-0.0,0.291448
7.92352,0.0205281,0.008013231,-0.0,0.480249,0.192999,-0.0,-0.0,0.2738951
7.9416,0.02246791,0.00683526,-0.0,0.4849256,0.191573,-0.0,-0.0,0.257709
7.95968,0.0247196,0.0055004,-0.0,0.482239,0.190572,-0.0,-0.0,0.24878
7.97776,0.02581268,0.00437081,-0.0,0.474034,0.189515,-0.0,-0.0,0.24601
7.99584,0.0265357,0.003140489,-0.0,0.4546625,0.188674,-0.0,-0.0,0.2497969
8.01392,0.0278522,0.00285121,-0.0,0.435157,0.188077,-0.0,-0.0,0.259718
8.032,0.0294489,0.002060678,-0.0,0.4207676,0.18749,-0.0,-0.0,0.26702
8.05008,0.0324048,0.0017335,-0.0,0.413252,0.1875,-0.0,-0.0,0.272417
8.06816,0.0343033,4.419664e-05,-0.0,0.4150508,0.187616,-0.0,-0.0,0.2730331
8.08624,0.03738903,-0.0,-0.0,0.425842,0.188024,-0.0,-0.0,0.267438
8.10432,0.039982,-0.0,-0.0,0.4450665,0.188273,-0.0,-0.0,0.2550893
8.1224,0.04196001,-0.0,-0.0,0.466754,0.18849,-0.0,-0.0,0.238725
8.14048,0.0434842,-0.0,-0.0,0.487872,0.188807,-0.0,-0.0,0.219396
8.15856,0.043224,-0.0,-0.0,0.5028751,0.189086,-0.0,-0.0,0.198525
8.17664,0.0415014,-0.0,-0.0,0.506122,0.1895756,-0.0,-0.0,0.179686
8.19472,0.0386505,-0.0,-0.0,0.5013082,0.190302,-0.0,-0.0,0.1634199
8.2128,0.0344134,-0.0,-0.0,0.483368,0.190642,-0.0,-0.0,0.14921
8.23088,0.0305872,-0.0,-0.0,0.4523188,0.190802,-0.0,-0.0,0.142856
8.24896,0.0249922,-0.0,-0.0,0.414921,0.190231,-0.0,-0.0,0.145633
8.26704,0.0194178,3.40228e-05,-0.0,0.37627,0.1892482,-0.0,-0.0,0.155962
8.28512,0.014823,0.0035085,-0.0,0.346193,0.187906,-0.0,-0.0,0.168303
8.3032,0.012355,0.00563968,-0.0,0.3290378,0.186535,-0.0,-0.0,0.180152
8.32128,0.0105981,0.007981045,-0.0,0.328423,0.1849004,-0.0,-0.0,0.18642
8.33936,0.0106633,0.008569221,-0.0,0.35244,0.183531,-0.0,-0.0,0.186196
8.35744,0.0121444,0.009619322,-0.0,0.389241,0.181963,-0.0,9.445218e-06,0.173006
8.37552,0.0159278,0.008805156,-0.0,0.4534458,0.180607,-0.0,-0.0,0.153101
8.3936,0.02137142,0.00835202,-0.0,0.520355,0.1795696,-0.0,-0.0,0.119389
8.41168,0.0290338,0.005620899,-0.0,0.5881371,0.1794601,-0.0,2.89389e-06,0.0858111
8.42976,0.03508679,0.003822701,-0.0,0.6353048,0.180481,-0.0,-0.0,0.05287604
8.44784,0.03827595,0.000156976,-0.0,0.662139,0.181981,-0.0,-0.0,0.0382861
8.46592,0.0388469,-0.0,-0.0,0.6627022,0.18294,-0.0,-0.0,0.0359608
8.484,0.03742642,-0.0,-0.0,0.6283065,0.182323,-0.0,-0.0,0.05409122
8.50208,0.0308688,-0.0,-0.0,0.5766314,0.180635,-0.0,-0.0,0.09791213
8.52016,0.0235967,5.967037e-05,-0.0,0.5137815,0.178974,-0.0,-0.0,0.148762
8.53824,0.0158273,0.00308848,-0.0,0.451951,0.177432,-0.0,-0.0,0.198565
8.55632,0.0125884,0.00631484,-0.0,0.3974274,0.176759,-0.0,-0.0,0.239045
8.5744,0.0112975,0.008955753,-0.0,0.351755,0.175887,-0.0,-0.0,0.26447
8.59248,0.0135083,0.009488655,-0.0,0.319479,0.174833,-0.0,-0.0,0.279309
8.61056,0.0171183,0.009304578,-0.0,0.2977845,0.17287,-0.0,-0.0,0.281805
8.62864,0.02075,0.00703768,-0.0,0.286171,0.170135,-0.0,-0.0,0.277997
8.64672,0.0238379,0.00516801,-0.0,0.284429,0.167452,-0.0,-0.0,0.270984
8.6648,0.02629277,0.00287084,-0.0,0.289715,0.164963,-0.0,-0.0,0.258541
8.68288,0.02756335,0.0015522,-0.0,0.301739,0.163023,-0.0,-0.0,0.244204
8.70096,0.0287788,0.000170012,-0.0,0.319358,0.161711,-0.0,-0.0,0.225247
8.71904,0.0294156,0.000100652,-0.0,0.337652,0.160692,-0.0,-0.0,0.2043094
8.73712,0.0313705,3.01533e-05,-0.0,0.354606,0.160375,-0.0,-0.0,0.183717
8.7552,0.03355341,-0.0,-0.0,0.367812,0.160952,-0.0,-0.0,0.165808
8.77328,0.03768669,-0.0,-0.0,0.374132,0.163205,-0.0,-0.0,0.151997
8.79136,0.04274549,-0.0,-0.0,0.374831,0.1672902,-0.0,-0.0,0.144769
8.80944,0.0477934,-0.0,-0.0,0.369107,0.172581,-0.0,-0.0,0.143104
8.82752,0.0505199,-0.0,-0.0,0.3638659,0.17728,-0.0,-0.0,0.149721
8.8456,0.0501848,-0.0,-0.0,0.360685,0.1797273,-0.0,-0.0,0.164379
8.86368,0.0455897,-0.0,-0.0,0.360369,0.178613,-0.0,-0.0,0.186213
8.88176,0.0386434,-0.0,-0.0,0.364872,0.175231,-0.0,-0.0,0.214106
8.89984,0.029253,-0.0,-0.0,0.367423,0.17116,-0.0,-0.0,0.240836
8.91792,0.01729402,-0.0,-0.0,0.374843,0.1679458,-0.0,-0.0,0.261675
8.936,0.009785639,0.00432609,-0.0,0.3801818,0.166652,-0.0,-0.0,0.263498
8.95408,0.00613445,0.00876918,-0.0,0.375316,0.165882,-0.0,-0.0,0.247596
8.97216,0.007368996,0.0109114,-0.0,0.360333,0.164582,-0.0,-0.0,0.225237
8.99024,0.01055989,0.0108193,-0.0,0.337943,0.162107,-0.0,-0.0,0.20217
9.00832,0.0153321,0.009471286,-0.0,0.317482,0.159106,-0.0,-0.0,0.185271
9.0264,0.0196419,0.00662516,-0.0,0.3036582,0.156083,-0.0,-0.0,0.175291
9.04448,0.022031,0.004195375,-0.0,0.2976055,0.153627,-0.0,-0.0,0.1700292
9.06256,0.0239806,0.00204454,-0.0,0.296247,0.152207,-0.0,-0.0,0.1697301
9.08064,0.02399009,0.00104342,-0.0,0.297509,0.1510237,-0.0,-0.0,0.169585
9.09872,0.0231721,0.000122616,-0.0,0.294648,0.15025,-0.0,-0.0,0.172932
9.1168,0.0210703,0.0002795475,-0.0,0.2903995,0.14961,-0.0,-0.0,0.177417
9.13488,0.0182785,0.0007783085,-0.0,0.283701,0.149176,-0.0,-0.0,0.182128
9.15296,0.0151707,0.00183273,-0.0,0.272899,0.149159,-0.0,-0.0,0.185999
9.17104,0.0122621,0.003116046,-0.0,0.262672,0.149579,-0.0,-0.0,0.189047
9.18912,0.009922448,0.004351573,-0.0,0.251464,0.15029,-0.0,-0.0,0.188665
9.2072,0.008760283,0.005484772,-0.0,0.243017,0.151029,-0.0,-0.0,0.187625
9.22528,0.009515163,0.00613701,-0.0,0.236318,0.151293,-0.0,-0.0,0.184419
9.24336,0.0104281,0.006107336,-0.0,0.229986,0.150822,-0.0,-0.0,0.182373
9.26144,0.0134653,0.00567829,-0.0,0.2266713,0.1503553,-0.0,-0.0,0.184097
9.27952,0.01551757,0.00476876,-0.0,0.224352,0.1494175,-0.0,-0.0,0.185251
9.2976,0.0180772,0.0033986,-0.0,0.225931,0.149221,-0.0,-0.0,0.189984
9.31568,0.0206968,0.00263426,-0.0,0.22977,0.149329,-0.0,-0.0,0.191093
9.33376,0.0222316,0.0014059,-0.0,0.2356,0.1495066,-0.0,-0.0,0.191852
9.35184,0.0241056,0.0005293766,-0.0,0.2438013,0.149671,-0.0,-0.0,0.191026
9.36992,0.0247374,7.538092e-05,-0.0,0.250788,0.148796,-0.0,-0.0,0.1877648
9.388,0.0255964,6.817667e-05,-0.0,0.259403,0.147795,-0.0,-0.0,0.186199
9.40608,0.026421,-0.0,-0.0,0.2674033,0.146348,-0.0,-0.0,0.182606
9.42416,0.0268715,-0.0,-0.0,0.2761408,0.145001,-0.0,-0.0,0.178059
9.44224,0.0279676,-0.0,-0.0,0.283097,0.14427,-0.0,-0.0,0.1722697
9.46032,0.0286817,-0.0,-0.0,0.286067,0.143808,-0.0,-0.0,0.164915
9.4784,0.0294576,-0.0,-0.0,0.287239,0.143758,-0.0,-0.0,0.1587737
9.49648,0.0300217,-0.0,-0.0,0.2857103,0.14371,-0.0,-0.0,0.152858
9.51456,0.0299177,-0.0,-0.0,0.283924,0.143617,-0.0,-0.0,0.148573
9.53264,0.03004086,-0.0,-0.0,0.281755,0.143432,-0.0,-0.0,0.146486
9.55072,0.0293441,-0.0,-0.0,0.279967,0.1429957,-0.0,-0.0,0.1458063
9.5688,0.0297246,-0.0,-0.0,0.2779906,0.1426184,-0.0,-0.0,0.147483
9.58688,0.0287815,-0.0,-0.0,0.2796004,0.1420064,-0.0,-0.0,0.148328
9.60496,0.0285188,-0.0,-0.0,0.281301,0.141841,-0.0,-0.0,0.150428
9.62304,0.0273335,-0.0,-0.0,0.289838,0.141648,-0.0,-0.0,0.150342
9.64112,0.0264071,-0.0,-0.0,0.296838,0.141671,-0.0,-0.0,0.147264
9.6592,0.024954,-0.0,-0.0,0.3043881,0.141853,-0.0,-0.0,0.145159
9.67728,0.0237314,-0.0,-0.0,0.311082,0.142296,-0.0,-0.0,0.1418483
9.69536,0.0228155,-0.0,-0.0,0.3178675,0.1426894,-0.0,-0.0,0.139296
9.71344,0.0224727,0.000377535,-0.0,0.3268183,0.142684,-0.0,-0.0,0.135633
9.73152,0.0231938,0.0008330682,-0.0,0.339105,0.14239,-0.0,-0.0,0.1319664
9.7496,0.0235654,0.000594133,-0.0,0.353951,0.141493,-0.0,-0.0,0.127951
9.76768,0.0235511,0.0002785892,-0.0,0.374603,0.14072,-0.0,-0.0,0.123496
9.78576,0.0228418,0.000175265,-0.0,0.395059,0.140142,-0.0,-0.0,0.116997
9.80384,0.02189801,0.000319943,-0.0,0.416488,0.139914,-0.0,-0.0,0.110563
9.82192,0.0215934,0.0008498614,-0.0,0.4321754,0.13996,-0.0,-0.0,0.101443
9.84,0.021601,0.001170775,-0.0,0.44117,0.139831,-0.0,-0.0,0.0944478
9.85808,0.0228185,0.00139962,-0.0,0.441945,0.139776,-0.0,-0.0,0.08871954
9.87616,0.0227996,0.0009811888,-0.0,0.434488,0.139326,-0.0,-0.0,0.08814295
9.89424,0.0241896,0.000579861,-0.0,0.418809,0.13922,-0.0,-0.0,0.09246154
9.91232,0.0214595,0.000333597,-0.0,0.4004123,0.1385318,-0.0,-0.0,0.1019837
9.9304,0.02109801,9.655144e-05,-0.0,0.3812268,0.139079,-0.0,-0.0,0.115016
9.94848,0.03268191,0.002564414,-0.0,0.3619393,0.138287,-0.0,-0.0,0.119161
9.96656,-0.0,-0.0,-0.0,0.341459,0.13094,-0.0,-0.0,0.146319
9.98464,0.330701,-0.0,-0.0,0.303801,0.162344,-0.0,-0.0,0.0500356